File: Experiment_RB/Manuel_Paul/Data/XRD/Dextrose_G1.dat
10	8.70381
10.04	10.121
10.08	11.1552
10.12	11.8064
10.16	12.2178
10.2	11.6483
10.24	11.4918
10.28	10.0119
10.32	9.61078
10.36	10.2154
10.4	10.796
10.44	11.5197
10.48	12.602
10.52	12.7687
10.56	13.5568
10.6	13.0182
10.64	12.4558
10.68	11.5411
10.72	11.3598
10.76	11.4705
10.8	10.9229
10.84	11.1105
10.88	11.8769
10.92	11.836
10.96	12.1632
11	11.6919
11.04	10.1018
11.08	9.82243
11.12	9.56639
11.16	9.87562
11.2	9.45444
11.24	10.0958
11.28	9.84872
11.32	10.1107
11.36	10.5769
11.4	10.1433
11.44	9.4954
11.48	10.0648
11.52	10.2283
11.56	11.1255
11.6	10.6992
11.64	9.32278
11.68	9.68581
11.72	9.94347
11.76	10.3997
11.8	11.8408
11.84	10.9506
11.88	9.12104
11.92	10.5897
11.96	12.8746
12	14.154
12.04	13.5604
12.08	11.2812
12.12	9.51593
12.16	10.5382
12.2	9.99727
12.24	9.48508
12.28	8.59076
12.32	8.96097
12.36	9.85479
12.4	9.49661
12.44	9.33259
12.48	8.52199
12.52	7.65618
12.56	9.1262
12.6	9.65386
12.64	10.6374
12.68	15.6583
12.72	24.2689
12.76	36.5166
12.8	58.2424
12.84	82.851
12.88	105.637
12.92	126.506
12.96	113.147
13	77.7752
13.04	41.3456
13.08	6.775
13.12	6.48155
13.16	8.20568
13.2	8.42653
13.24	8.50531
13.28	7.45444
13.32	7.10911
13.36	7.12792
13.4	6.78714
13.44	7.57377
13.48	7.96026
13.52	8.64597
13.56	8.75589
13.6	8.96289
13.64	8.03509
13.68	8.73577
13.72	8.99302
13.76	9.33431
13.8	8.6848
13.84	7.37122
13.88	6.58307
13.92	7.46264
13.96	7.14996
14	7.49156
14.04	6.74325
14.08	6.61048
14.12	7.27445
14.16	7.3423
14.2	7.25048
14.24	6.41966
14.28	5.53251
14.32	5.44737
14.36	6.25918
14.4	7.50804
14.44	8.7209
14.48	9.2611
14.52	10.4778
14.56	14.0567
14.6	19.7556
14.64	26.366
14.68	40.3253
14.72	50.2262
14.76	51.2777
14.8	41.8562
14.84	24.6117
14.88	11.687
14.92	8.47396
14.96	7.07635
15	7.66367
15.04	6.9906
15.08	6.58752
15.12	7.4415
15.16	7.68955
15.2	8.09394
15.24	8.16058
15.28	7.83426
15.32	7.7931
15.36	7.9277
15.4	7.99363
15.44	7.55911
15.48	7.23986
15.52	6.81191
15.56	7.60077
15.6	7.36697
15.64	7.06715
15.68	6.66801
15.72	6.02053
15.76	6.75832
15.8	7.33492
15.84	7.61664
15.88	7.03792
15.92	6.35261
15.96	6.22904
16	5.99292
16.04	6.29912
16.08	6.97401
16.12	7.09384
16.16	7.10153
16.2	7.11912
16.24	7.29629
16.28	7.08889
16.32	6.93073
16.36	6.5311
16.4	6.68066
16.44	7.44919
16.48	8.4148
16.52	9.38052
16.56	9.25988
16.6	9.03681
16.64	8.66084
16.68	8.63869
16.72	8.94256
16.76	8.30468
16.8	8.03256
16.84	7.96299
16.88	7.52351
16.92	7.33168
16.96	6.57852
17	6.43644
17.04	7.72565
17.08	8.53979
17.12	9.78683
17.16	9.59278
17.2	9.88118
17.24	10.1488
17.28	11.725
17.32	11.2955
17.36	10.1449
17.4	8.35514
17.44	7.1082
17.48	7.20821
17.52	7.03954
17.56	7.23339
17.6	7.4773
17.64	7.31308
17.68	7.67196
17.72	7.89928
17.76	8.31975
17.8	8.59298
17.84	8.08241
17.88	7.70169
17.92	7.5583
17.96	8.16746
18	7.91051
18.04	7.67469
18.08	7.25119
18.12	8.1709
18.16	8.1799
18.2	8.78896
18.24	8.57781
18.28	9.24381
18.32	12.0469
18.36	19.6074
18.4	27.3645
18.44	40.4077
18.48	72.2495
18.52	93.8252
18.56	114.617
18.6	139.859
18.64	133.335
18.68	113.058
18.72	70.3517
18.76	24.9198
18.8	4.1805
18.84	9.58863
18.88	10.5253
18.92	12.417
18.96	12.7963
19	10.9998
19.04	9.14723
19.08	8.71665
19.12	7.94054
19.16	8.3602
19.2	7.96208
19.24	8.82486
19.28	9.75589
19.32	9.72232
19.36	9.67206
19.4	8.16877
19.44	8.01962
19.48	9.30215
19.52	10.0594
19.56	12.7274
19.6	16.2835
19.64	25.2121
19.68	45.5881
19.72	75.6033
19.76	110.755
19.8	153.749
19.84	191.535
19.88	203.683
19.92	178.759
19.96	123.445
20	64.637
20.04	32.3142
20.08	24.5654
20.12	32.7563
20.16	50.9893
20.2	74.1393
20.24	100.052
20.28	136.8
20.32	161.558
20.36	154.438
20.4	121.098
20.44	73.3973
20.48	38.7628
20.52	24.0011
20.56	17.2702
20.6	15.3758
20.64	16.8965
20.68	19.6118
20.72	24.1944
20.76	28.7651
20.8	30.7404
20.84	27.8364
20.88	21.7949
20.92	15.9041
20.96	12.0114
21	10.7108
21.04	9.82607
21.08	9.41389
21.12	9.37698
21.16	8.32197
21.2	8.11063
21.24	9.11204
21.28	10.0215
21.32	11.8279
21.36	12.1552
21.4	11.4185
21.44	9.34543
21.48	8.00222
21.52	9.07776
21.56	10.7897
21.6	14.549
21.64	18.0249
21.68	20.3802
21.72	23.7743
21.76	28.4223
21.8	30.4397
21.84	26.7532
21.88	19.6676
21.92	13.3183
21.96	9.56234
22	9.91748
22.04	9.78168
22.08	9.10638
22.12	8.9546
22.16	8.67216
22.2	8.21691
22.24	7.63373
22.28	7.44534
22.32	6.93356
22.36	7.07311
22.4	8.20174
22.44	10.0872
22.48	10.3497
22.52	9.90879
22.56	8.97442
22.6	8.76064
22.64	10.5645
22.68	15.555
22.72	26.3719
22.76	41.9325
22.8	61.1967
22.84	78.0406
22.88	98.222
22.92	110.884
22.96	106.399
23	81.4117
23.04	47.0235
23.08	22.2505
23.12	12.0612
23.16	10.4047
23.2	10.4343
23.24	10.0535
23.28	10.9079
23.32	11.0358
23.36	10.8789
23.4	11.232
23.44	13.9072
23.48	17.317
23.52	21.4614
23.56	25.7859
23.6	30.4458
23.64	28.2885
23.68	20.9634
23.72	12.9937
23.76	9.22105
23.8	8.31773
23.84	8.58843
23.88	7.64789
23.92	7.58247
23.96	8.34574
24	8.5678
24.04	8.5497
24.08	8.1715
24.12	7.8292
24.16	8.30701
24.2	8.96542
24.24	7.76216
24.28	7.17302
24.32	7.28456
24.36	6.85125
24.4	7.11882
24.44	7.23046
24.48	7.50804
24.52	7.89847
24.56	7.98908
24.6	7.93043
24.64	7.89503
24.68	7.07888
24.72	6.86793
24.76	7.15927
24.8	8.09455
24.84	9.35807
24.88	9.83487
24.92	9.13035
24.96	9.95824
25	9.12822
25.04	8.78501
25.08	7.71241
25.12	7.97138
25.16	8.28415
25.2	8.55385
25.24	8.77025
25.28	9.35636
25.32	10.7634
25.36	13.0606
25.4	15.8783
25.44	21.8605
25.48	30.4296
25.52	40.5646
25.56	52.0634
25.6	56.481
25.64	51.6848
25.68	39.2315
25.72	25.0564
25.76	15.2715
25.8	13.4472
25.84	10.9774
25.88	9.55627
25.92	9.04712
25.96	7.98615
26	8.10385
26.04	7.78926
26.08	6.87532
26.12	8.08039
26.16	9.02811
26.2	9.28688
26.24	8.78764
26.28	8.07635
26.32	7.48023
26.36	8.56325
26.4	9.63828
26.44	13.2194
26.48	16.8269
26.52	20.9422
26.56	25.6665
26.6	29.0155
26.64	30.9191
26.68	30.962
26.72	26.0377
26.76	20.2347
26.8	14.9695
26.84	11.7929
26.88	13.0039
26.92	15.2817
26.96	17.9903
27	19.4822
27.04	19.587
27.08	17.013
27.12	13.8251
27.16	11.9545
27.2	9.39478
27.24	8.3968
27.28	7.81565
27.32	7.9906
27.36	9.06704
27.4	9.40166
27.44	8.62018
27.48	11.746
27.52	16.6587
27.56	21.045
27.6	26.2266
27.64	29.5057
27.68	33.204
27.72	33.8409
27.76	34.0186
27.8	30.8176
27.84	27.4107
27.88	26.0677
27.92	26.076
27.96	33.8245
28	37.0732
28.04	31.7477
28.08	22.1502
28.12	10.6733
28.16	10.9259
28.2	17.6565
28.24	28.3533
28.28	44.1824
28.32	62.3139
28.36	88.2345
28.4	111.465
28.44	129.827
28.48	141.162
28.52	123
28.56	90.9743
28.6	55.8353
28.64	26.1242
28.68	16.2784
28.72	14.235
28.76	8.32076
28.8	8.68662
28.84	8.08575
28.88	7.6671
28.92	8.38447
28.96	8.67428
29	9.40044
29.04	9.33755
29.08	7.33654
29.12	6.7383
29.16	7.37314
29.2	7.32258
29.24	8.95793
29.28	10.766
29.32	13.8632
29.36	18.5365
29.4	26.7392
29.44	32.7608
29.48	48.7018
29.52	59.3362
29.56	56.4892
29.6	43.8507
29.64	24.8409
29.68	12.3136
29.72	9.97381
29.76	9.60208
29.8	9.33654
29.84	8.45637
29.88	7.80928
29.92	7.65851
29.96	8.80322
30	9.75589
30.04	9.45495
30.08	10.1595
30.12	10.2833
30.16	9.96006
30.2	9.0987
30.24	8.38973
30.28	8.25897
30.32	9.16534
30.36	9.33593
30.4	9.05511
30.44	7.53838
30.48	7.00607
30.52	7.22975
30.56	8.23865
30.6	9.74507
30.64	11.2688
30.68	11.2172
30.72	11.3509
30.76	12.8922
30.8	13.9799
30.84	17.2845
30.88	19.9852
30.92	20.2875
30.96	23.5916
31	27.8433
31.04	25.0774
31.08	47.6156
31.12	77.2422
31.16	86.3001
31.2	86.0107
31.24	65.3796
31.28	41.0903
31.32	42.918
31.36	35.781
31.4	26.6523
31.44	20.458
31.48	14.6058
31.52	12.1206
31.56	10.4276
31.6	9.71301
31.64	8.58742
31.68	8.23632
31.72	8.55516
31.76	8.09212
31.8	8.86571
31.84	8.87036
31.88	8.81838
31.92	9.14137
31.96	9.61867
32	9.26969
32.04	9.40489
32.08	9.94651
32.12	9.81747
32.16	10.1674
32.2	10.5439
32.24	11.1495
32.28	12.713
32.32	13.5687
32.36	17.8816
32.4	21.9639
32.44	25.0756
32.48	26.7641
32.52	23.6486
32.56	17.061
32.6	13.2815
32.64	9.51107
32.68	8.58803
32.72	9.05835
32.76	8.93134
32.8	8.9822
32.84	9.5041
32.88	9.667
32.92	10.4108
32.96	10.8075
33	11.2305
33.04	11.827
33.08	13.2095
33.12	13.8307
33.16	13.6641
33.2	13.4988
33.24	13.9258
33.28	14.3877
33.32	16.6547
33.36	21.2913
33.4	25.5827
33.44	29.5072
33.48	30.6738
33.52	29.4932
33.56	27.5092
33.6	23.9453
33.64	19.6801
33.68	16.1288
33.72	14.3219
33.76	16.0393
33.8	18.919
33.84	22.2765
33.88	27.375
33.92	29.0187
33.96	26.5039
34	20.89
34.04	13.6842
34.08	11.031
34.12	9.00526
34.16	8.75437
34.2	9.59713
34.24	10.5009
34.28	11.3285
34.32	11.0556
34.36	10.7397
34.4	10.8628
34.44	10.4569
34.48	9.7207
34.52	9.82789
34.56	10.6475
34.6	10.8206
34.64	10.7373
34.68	9.6038
34.72	8.51067
34.76	9.23309
34.8	10.068
34.84	10.2188
34.88	9.93397
34.92	7.78137
34.96	8.35282
35	8.59784
35.04	8.79836
35.08	9.81292
35.12	10.8972
35.16	11.896
35.2	17.1917
35.24	21.4909
35.28	28.0731
35.32	32.7403
35.36	35.5506
35.4	36.734
35.44	34.6447
35.48	31.706
35.52	30.5847
35.56	30.8915
35.6	34.0499
35.64	37.717
35.68	41.2116
35.72	41.3077
35.76	41.6227
35.8	42.5275
35.84	40.8756
35.88	35.4828
35.92	28.3626
35.96	20.3136
36	14.0187
36.04	12.379
36.08	11.0398
36.12	10.32
36.16	10.8931
36.2	10.5308
36.24	10.7248
36.28	10.0643
36.32	10.0585
36.36	11.8487
36.4	14.0388
36.44	14.6876
36.48	13.3974
36.52	13.853
36.56	14.2084
36.6	16.7193
36.64	18.1605
36.68	17.095
36.72	15.7636
36.76	15.5776
36.8	16.1713
36.84	19.7023
36.88	23.9318
36.92	33.2448
36.96	46.1718
37	62.5683
37.04	72.7275
37.08	66.7139
37.12	50.6419
37.16	32.8476
37.2	21.8268
37.24	16.9337
37.28	12.756
37.32	11.5213
37.36	10.964
37.4	12.2275
37.44	11.3346
37.48	14.1032
37.52	16.511
37.56	17.601
37.6	19.4157
37.64	18.9749
37.68	16.8099
37.72	18.036
37.76	17.8939
37.8	17.2758
37.84	16.4837
37.88	14.6303
37.92	12.3964
37.96	11.2184
38	9.62423
38.04	9.06452
38.08	9.92487
38.12	9.64557
38.16	10.1819
38.2	9.93083
38.24	10.3916
38.28	12.0626
38.32	14.0637
38.36	25.6534
38.4	34.7114
38.44	35.3185
38.48	28.9275
38.52	18.0483
38.56	11.1715
38.6	12.15
38.64	10.7773
38.68	10.1778
38.72	10.1517
38.76	8.92628
38.8	8.79947
38.84	9.01648
38.88	10.0654
38.92	9.80453
38.96	9.02336
39	9.64769
39.04	9.03661
39.08	9.66154
39.12	10.3774
39.16	10.3762
39.2	10.7972
39.24	9.87754
39.28	9.49954
39.32	9.04945
39.36	9.19577
39.4	9.86621
39.44	9.51441
39.48	9.15998
39.52	9.45293
39.56	8.26363
39.6	9.41814
39.64	10.1076
39.68	10.4706
39.72	10.1702
39.76	9.18182
39.8	9.22338
39.84	10.7062
39.88	11.2437
39.92	10.3963
39.96	10.05
40	9.43715
40.04	13.0425
40.08	19.2216
40.12	24.5296
40.16	30.8202
40.2	36.5878
40.24	36.7561
40.28	42.2979
40.32	44.487
40.36	39.29
40.4	30.3379
40.44	20.0438
40.48	13.1875
40.52	12.2755
40.56	10.6545
40.6	9.78916
40.64	9.57094
40.68	8.79088
40.72	8.83416
40.76	8.3961
40.8	8.99535
40.84	10.4496
40.88	10.7226
40.92	10.6124
40.96	11.2366
41	11.3991
41.04	13.9626
41.08	15.6651
41.12	16.5003
41.16	16.5768
41.2	18.7522
41.24	20.4085
41.28	23.823
41.32	26.0635
41.36	27.6214
41.4	32.8892
41.44	38.3111
41.48	45.3583
41.52	49.4586
41.56	52.9841
41.6	53.0448
41.64	47.1736
41.68	39.1653
41.72	28.0974
41.76	20.2328
41.8	16.5653
41.84	12.7846
41.88	10.2899
41.92	10.1161
41.96	9.52574
42	11.925
42.04	13.5218
42.08	17.0897
42.12	23.6812
42.16	31.4703
42.2	35.7015
42.24	34.3088
42.28	28.8371
42.32	26.6691
42.36	25.6115
42.4	23.5308
42.44	19.7814
42.48	14.7358
42.52	11.6034
42.56	10.6154
42.6	9.40934
42.64	9.66346
42.68	9.84528
42.72	10.1663
42.76	10.7564
42.8	11.0991
42.84	11.6384
42.88	12.1242
42.92	12.0043
42.96	12.1827
43	11.5559
43.04	11.7198
43.08	10.9177
43.12	10.0551
43.16	9.6935
43.2	10.4503
43.24	10.6997
43.28	11.6013
43.32	11.036
43.36	9.52341
43.4	8.35868
43.44	8.20558
43.48	8.32329
43.52	8.6486
43.56	8.70361
43.6	8.08282
43.64	9.03256
43.68	10.0062
43.72	10.0212
43.76	9.5496
43.8	9.81464
43.84	10.0162
43.88	11.3251
43.92	11.3518
43.96	11.4521
44	11.7736
44.04	12.5879
44.08	15.1878
44.12	17.3984
44.16	21.3951
44.2	24.8849
44.24	25.9694
44.28	24.6411
44.32	22.2512
44.36	19.985
44.4	18.2806
44.44	15.8376
44.48	13.7282
44.52	11.7465
44.56	12.3775
44.6	22.4037
44.64	32.068
44.68	35.0441
44.72	29.7082
44.76	19.7149
44.8	14.8571
44.84	14.7078
44.88	13.9819
44.92	13.1429
44.96	14.5778
45	17.1906
45.04	19.6997
45.08	20.771
45.12	21.7945
45.16	20.0127
45.2	19.1072
45.24	17.6956
45.28	17.725
45.32	17.4487
45.36	17.6417
45.4	17.1556
45.44	16.9247
45.48	17.3406
45.52	17.5698
45.56	15.3705
45.6	14.3533
45.64	12.682
45.68	11.9269
45.72	11.6278
45.76	10.1456
45.8	10.585
45.84	10.1806
45.88	9.73769
45.92	10.0396
45.96	8.89503
46	9.65952
46.04	10.2809
46.08	9.28597
46.12	8.55385
46.16	7.62686
46.2	7.83244
46.24	8.04146
46.28	8.62706
46.32	8.50025
46.36	7.98473
46.4	7.74032
46.44	8.61442
46.48	8.82486
46.52	10.3045
46.56	10.957
46.6	11.0951
46.64	10.9363
46.68	10.1358
46.72	9.1439
46.76	8.9373
46.8	10.6271
46.84	10.9443
46.88	10.9567
46.92	11.0934
46.96	12.0367
47	12.9966
47.04	13.0386
47.08	11.9903
47.12	10.6708
47.16	9.90312
47.2	8.61614
47.24	8.27718
47.28	8.85014
47.32	9.83628
47.36	10.6201
47.4	11.1587
47.44	10.874
47.48	10.6776
47.52	11.2493
47.56	11.3568
47.6	11.5049
47.64	12.5051
47.68	12.7453
47.72	12.4703
47.76	11.3303
47.8	9.59713
47.84	8.61634
47.88	7.8557
47.92	8.45879
47.96	8.89109
48	8.93579
48.04	9.01163
48.08	8.97876
48.12	9.90788
48.16	10.3397
48.2	9.91435
48.24	9.37648
48.28	10.4921
48.32	10.885
48.36	10.5115
48.4	9.30226
48.44	9.72383
48.48	10.3471
48.52	10.5593
48.56	11.2857
48.6	13.3976
48.64	17.4125
48.68	20.7962
48.72	21.6597
48.76	18.8045
48.8	14.4088
48.84	12.9903
48.88	13.3368
48.92	14.7332
48.96	16.4375
49	17.3004
49.04	18.0711
49.08	18.9835
49.12	18.9992
49.16	18.6942
49.2	18.5171
49.24	19.3297
49.28	19.2664
49.32	17.3316
49.36	14.3908
49.4	11.9379
49.44	10.1652
49.48	11.1397
49.52	11.0817
49.56	10.2646
49.6	10.1982
49.64	10.5464
49.68	11.3994
49.72	11.4478
49.76	11.0316
49.8	10.5408
49.84	11.3499
49.88	11.7716
49.92	11.7604
49.96	11.7071
50	12.2266
50.04	11.9129
50.08	11.2744
50.12	10.4399
50.16	10.4262
50.2	9.23562
50.24	8.49065
50.28	7.54849
50.32	7.81535
50.36	8.63121
50.4	9.10497
50.44	8.77632
50.48	7.91728
50.52	7.75276
50.56	8.71908
50.6	9.89453
50.64	9.49894
50.68	9.34098
50.72	9.85438
50.76	10.841
50.8	11.9273
50.84	11.0431
50.88	9.5042
50.92	8.22389
50.96	8.39327
51	8.54293
51.04	7.95945
51.08	7.82728
51.12	7.5856
51.16	8.29154
51.2	8.43078
51.24	8.5859
51.28	8.63343
51.32	8.4411
51.36	8.26029
51.4	8.51744
51.44	8.96127
51.48	8.40934
51.52	7.95743
51.56	7.97381
51.6	7.60229
51.64	8.12256
51.68	8.51006
51.72	8.9554
51.76	8.98827
51.8	8.56689
51.84	7.95318
51.88	7.63545
51.92	7.58661
51.96	8.47861
52	8.87714
52.04	8.91415
52.08	8.23036
52.12	8.22429
52.16	7.90262
52.2	8.25887
52.24	7.98503
52.28	8.20427
52.32	8.11821
52.36	8.90727
52.4	11.0061
52.44	13.2201
52.48	14.8443
52.52	14.8978
52.56	13.2105
52.6	11.8182
52.64	11.4013
52.68	11.175
52.72	10.7098
52.76	9.16402
52.8	8.25058
52.84	8.67863
52.88	8.62443
52.92	9.22227
52.96	9.54748
53	9.17029
53.04	9.16999
53.08	9.85681
53.12	11.2012
53.16	13.6785
53.2	15.1592
53.24	14.7205
53.28	14.5743
53.32	15.4384
53.36	15.0621
53.4	14.6509
53.44	13.9603
53.48	14.5749
53.52	15.2944
53.56	14.4934
53.6	11.831
53.64	9.53716
53.68	8.76074
53.72	9.43462
53.76	9.81373
53.8	9.51299
53.84	9.48842
53.88	9.19567
53.92	8.90757
53.96	9.00587
54	8.47659
54.04	7.9369
54.08	8.80898
54.12	10.1309
54.16	9.89868
54.2	8.99889
54.24	8.53019
54.28	8.53544
54.32	9.10416
54.36	9.02993
54.4	8.31742
54.44	8.34816
54.48	9.68248
54.52	11.2716
54.56	14.0514
54.6	14.7273
54.64	13.773
54.68	13.6223
54.72	13.2175
54.76	14.0574
54.8	12.8178
54.84	10.773
54.88	9.81029
54.92	9.89402
54.96	11.3841
55	12.13
55.04	11.9804
55.08	11.5212
55.12	11.4585
55.16	12.2423
55.2	13.164
55.24	14.0118
55.28	13.8186
55.32	13.7155
55.36	14.4649
55.4	13.9419
55.44	12.6715
55.48	11.507
55.52	9.74163
55.56	10.7513
55.6	11.0451
55.64	11.4028
55.68	12.3391
55.72	12.1606
55.76	12.7376
55.8	13.5215
55.84	12.885
55.88	12.4622
55.92	12.6936
55.96	11.8605
56	11.9019
56.04	11.1125
56.08	9.77561
56.12	9.15947
56.16	9.05633
56.2	8.31297
56.24	9.14653
56.28	9.26767
56.32	9.96451
56.36	9.81919
56.4	8.8291
56.44	8.11488
56.48	8.56811
56.52	9.47164
56.56	10.4554
56.6	11.5333
56.64	11.3092
56.68	12.5335
56.72	11.5075
56.76	10.0053
56.8	9.70877
56.84	9.20518
56.88	8.17494
56.92	8.46678
56.96	7.78501
57	8.08646
57.04	8.09526
57.08	8.25958
57.12	7.74123
57.16	7.69785
57.2	7.85428
57.24	7.85246
57.28	8.06219
57.32	8.5678
57.36	9.34321
57.4	9.32329
57.44	9.26292
57.48	8.85873
57.52	9.11477
57.56	10.7424
57.6	12.6057
57.64	13.2056
57.68	14.9361
57.72	16.7852
57.76	18.4331
57.8	18.8233
57.84	17.3319
57.88	15.0367
57.92	13.0567
57.96	11.7804
58	10.5711
58.04	9.19102
58.08	9.48175
58.12	10.4112
58.16	9.70604
58.2	8.89109
58.24	8.93993
58.28	8.52493
58.32	8.32177
58.36	8.30863
58.4	7.79897
58.44	8.45637
58.48	8.96987
58.52	9.94428
58.56	11.0804
58.6	11.4564
58.64	11.8351
58.68	12.4015
58.72	12.0139
58.76	11.0515
58.8	11.3554
58.84	10.6432
58.88	11.0648
58.92	11.7779
58.96	10.6161
59	10.5802
59.04	10.703
59.08	11.0979
59.12	10.7766
59.16	10.6543
59.2	10.3107
59.24	9.07584
59.28	8.08059
59.32	7.29487
59.36	8.08272
59.4	8.7931
59.44	10.0197
59.48	9.50693
59.52	8.59177
59.56	7.79199
59.6	7.61624
59.64	7.63646
59.68	8.76034
59.72	8.89321
59.76	9.48165
59.8	9.50622
59.84	7.97371
59.88	7.85641
59.92	8.24805
59.96	9.23348
60	10.8127