File: Experiment_RB/Manuel_Paul/Data/XRD/HG1_NaCl_01_55s_4523.ASC
 10.000        7
 10.050       12
 10.100        8
 10.150        6
 10.200       10
 10.250        7
 10.300        8
 10.350        6
 10.400        7
 10.450        4
 10.500        5
 10.550        4
 10.600       10
 10.650        7
 10.700        5
 10.750       12
 10.800        8
 10.850        6
 10.900       11
 10.950        9
 11.000        7
 11.050        7
 11.100       14
 11.150        7
 11.200        0
 11.250        8
 11.300        6
 11.350        6
 11.400       10
 11.450       13
 11.500        9
 11.550        8
 11.600        7
 11.650        5
 11.700        4
 11.750        7
 11.800        7
 11.850        3
 11.900       11
 11.950        5
 12.000        6
 12.050       11
 12.100        9
 12.150        9
 12.200        5
 12.250        7
 12.300        6
 12.350        8
 12.400        6
 12.450        6
 12.500        9
 12.550       11
 12.600        3
 12.650        8
 12.700       13
 12.750        9
 12.800        5
 12.850        5
 12.900        6
 12.950        8
 13.000        9
 13.050        9
 13.100        8
 13.150        6
 13.200        7
 13.250       10
 13.300        7
 13.350        8
 13.400        5
 13.450       10
 13.500        8
 13.550        3
 13.600       13
 13.650       15
 13.700        3
 13.750        6
 13.800       10
 13.850        3
 13.900        5
 13.950        7
 14.000        3
 14.050        4
 14.100       10
 14.150        6
 14.200       13
 14.250        3
 14.300        6
 14.350        4
 14.400        9
 14.450        6
 14.500        9
 14.550        3
 14.600        7
 14.650        4
 14.700        8
 14.750        8
 14.800        8
 14.850        6
 14.900        3
 14.950        9
 15.000        7
 15.050        8
 15.100        3
 15.150        9
 15.200        5
 15.250        9
 15.300        6
 15.350        4
 15.400        7
 15.450        3
 15.500        5
 15.550       10
 15.600        8
 15.650        5
 15.700        7
 15.750        1
 15.800        6
 15.850        6
 15.900        1
 15.950        5
 16.000        5
 16.050        8
 16.100        6
 16.150        4
 16.200        7
 16.250        7
 16.300        8
 16.350        7
 16.400        6
 16.450       10
 16.500        4
 16.550        8
 16.600        3
 16.650        5
 16.700        9
 16.750        6
 16.800       15
 16.850        6
 16.900        6
 16.950        9
 17.000        9
 17.050       10
 17.100        4
 17.150       10
 17.200        2
 17.250        3
 17.300        9
 17.350        4
 17.400        9
 17.450        8
 17.500        5
 17.550        5
 17.600        4
 17.650        7
 17.700        4
 17.750        6
 17.800        6
 17.850        6
 17.900        4
 17.950        0
 18.000        6
 18.050        2
 18.100        7
 18.150        9
 18.200        8
 18.250        5
 18.300        9
 18.350        6
 18.400        7
 18.450        4
 18.500        9
 18.550        4
 18.600       10
 18.650        5
 18.700        9
 18.750        6
 18.800       11
 18.850        6
 18.900        4
 18.950        8
 19.000        9
 19.050        5
 19.100        6
 19.150       11
 19.200        3
 19.250       10
 19.300        3
 19.350        6
 19.400        6
 19.450        3
 19.500        5
 19.550       11
 19.600        5
 19.650        6
 19.700        6
 19.750       11
 19.800       11
 19.850       10
 19.900        6
 19.950        7
 20.000        4
 20.050        8
 20.100        5
 20.150       13
 20.200        8
 20.250        3
 20.300        7
 20.350        9
 20.400        7
 20.450        7
 20.500        8
 20.550        5
 20.600        6
 20.650        8
 20.700        5
 20.750        9
 20.800        2
 20.850        7
 20.900        7
 20.950        5
 21.000        8
 21.050        5
 21.100        5
 21.150        7
 21.200        5
 21.250        4
 21.300        8
 21.350        1
 21.400        7
 21.450        5
 21.500        7
 21.550        4
 21.600        9
 21.650        8
 21.700        6
 21.750        4
 21.800        7
 21.850        6
 21.900        6
 21.950        3
 22.000        8
 22.050        6
 22.100        3
 22.150        7
 22.200        4
 22.250        8
 22.300       10
 22.350        9
 22.400        8
 22.450        7
 22.500        8
 22.550        5
 22.600        7
 22.650        8
 22.700        9
 22.750        6
 22.800        5
 22.850        7
 22.900        9
 22.950        4
 23.000        9
 23.050        3
 23.100        4
 23.150        5
 23.200        3
 23.250        5
 23.300        6
 23.350        5
 23.400        9
 23.450        2
 23.500        1
 23.550        5
 23.600        7
 23.650        4
 23.700        2
 23.750        9
 23.800        4
 23.850        4
 23.900        5
 23.950        5
 24.000        5
 24.050        5
 24.100        8
 24.150        6
 24.200        5
 24.250        6
 24.300        8
 24.350        4
 24.400        8
 24.450        8
 24.500       10
 24.550       10
 24.600        5
 24.650        6
 24.700        6
 24.750        7
 24.800        7
 24.850        6
 24.900        1
 24.950        5
 25.000        5
 25.050        9
 25.100        6
 25.150        3
 25.200        5
 25.250        4
 25.300        8
 25.350        4
 25.400        8
 25.450        6
 25.500        4
 25.550       13
 25.600        8
 25.650        7
 25.700        4
 25.750       10
 25.800       12
 25.850        5
 25.900        5
 25.950       10
 26.000        2
 26.050        7
 26.100        7
 26.150        4
 26.200        5
 26.250        8
 26.300        5
 26.350        8
 26.400        6
 26.450        4
 26.500        9
 26.550        4
 26.600        8
 26.650        6
 26.700        6
 26.750        4
 26.800        7
 26.850        9
 26.900        5
 26.950       14
 27.000       27
 27.050       25
 27.100       16
 27.150       26
 27.200       13
 27.250       11
 27.300       13
 27.350       11
 27.400        7
 27.450        8
 27.500        6
 27.550        2
 27.600        5
 27.650        6
 27.700        7
 27.750        4
 27.800        4
 27.850        7
 27.900        3
 27.950       13
 28.000        8
 28.050        5
 28.100        5
 28.150        6
 28.200        7
 28.250        5
 28.300        8
 28.350        7
 28.400        9
 28.450       11
 28.500        7
 28.550        8
 28.600        8
 28.650        2
 28.700        7
 28.750        5
 28.800        4
 28.850        9
 28.900        9
 28.950        8
 29.000        5
 29.050        6
 29.100       10
 29.150        7
 29.200        7
 29.250        3
 29.300        5
 29.350        9
 29.400        7
 29.450        6
 29.500        9
 29.550        9
 29.600        6
 29.650        4
 29.700        3
 29.750        4
 29.800        2
 29.850        9
 29.900        6
 29.950        7
 30.000        9
 30.050        4
 30.100        6
 30.150        6
 30.200        7
 30.250        7
 30.300        5
 30.350        8
 30.400       10
 30.450        4
 30.500       10
 30.550        7
 30.600        5
 30.650        4
 30.700        6
 30.750        2
 30.800        5
 30.850        7
 30.900        7
 30.950        3
 31.000        8
 31.050        6
 31.100        5
 31.150       14
 31.200       25
 31.250       62
 31.300      195
 31.350      399
 31.400      258
 31.450      151
 31.500      123
 31.550      169
 31.600      117
 31.650       59
 31.700       47
 31.750       16
 31.800       13
 31.850       13
 31.900       12
 31.950        8
 32.000        6
 32.050        8
 32.100        5
 32.150        6
 32.200        9
 32.250        8
 32.300        5
 32.350        7
 32.400        2
 32.450        7
 32.500        8
 32.550        4
 32.600        9
 32.650        9
 32.700        5
 32.750        9
 32.800        7
 32.850       10
 32.900        3
 32.950        5
 33.000        7
 33.050       10
 33.100        9
 33.150       12
 33.200        6
 33.250        9
 33.300        4
 33.350       11
 33.400       11
 33.450        8
 33.500        6
 33.550        7
 33.600        5
 33.650        7
 33.700        7
 33.750        5
 33.800        5
 33.850       10
 33.900        9
 33.950        6
 34.000        8
 34.050        2
 34.100        6
 34.150        4
 34.200        5
 34.250        4
 34.300        7
 34.350        5
 34.400        7
 34.450        8
 34.500        7
 34.550        7
 34.600       11
 34.650        2
 34.700        6
 34.750        5
 34.800        6
 34.850        8
 34.900        4
 34.950        9
 35.000        3
 35.050       10
 35.100        5
 35.150        4
 35.200        7
 35.250        1
 35.300        7
 35.350        5
 35.400        6
 35.450       10
 35.500        8
 35.550        4
 35.600        6
 35.650        9
 35.700        8
 35.750       11
 35.800        7
 35.850        6
 35.900        6
 35.950        8
 36.000        6
 36.050       11
 36.100        9
 36.150        7
 36.200        6
 36.250        3
 36.300        5
 36.350        9
 36.400        6
 36.450        3
 36.500        4
 36.550       11
 36.600        9
 36.650       11
 36.700        7
 36.750        9
 36.800        7
 36.850        6
 36.900        7
 36.950        6
 37.000        9
 37.050        6
 37.100       10
 37.150        6
 37.200        6
 37.250        7
 37.300        8
 37.350        7
 37.400        1
 37.450        7
 37.500       10
 37.550        9
 37.600        2
 37.650        4
 37.700        6
 37.750        8
 37.800        4
 37.850        7
 37.900        6
 37.950        9
 38.000        4
 38.050        7
 38.100        6
 38.150        5
 38.200        7
 38.250        5
 38.300        7
 38.350       10
 38.400        6
 38.450        6
 38.500        4
 38.550       11
 38.600        8
 38.650        7
 38.700        2
 38.750        7
 38.800        9
 38.850        2
 38.900        7
 38.950        6
 39.000        7
 39.050        5
 39.100        4
 39.150        2
 39.200        4
 39.250        2
 39.300       11
 39.350        6
 39.400        8
 39.450        3
 39.500       10
 39.550        6
 39.600       10
 39.650        4
 39.700        6
 39.750        9
 39.800        6
 39.850        5
 39.900        8
 39.950        8
 40.000        2
 40.050        5
 40.100        7
 40.150        6
 40.200        3
 40.250        7
 40.300        7
 40.350        2
 40.400        5
 40.450        6
 40.500        4
 40.550       11
 40.600        4
 40.650        2
 40.700        4
 40.750        2
 40.800       10
 40.850        7
 40.900        4
 40.950        3
 41.000        5
 41.050        8
 41.100        6
 41.150        6
 41.200        7
 41.250        4
 41.300        3
 41.350        5
 41.400        7
 41.450        4
 41.500        5
 41.550        6
 41.600        3
 41.650        9
 41.700        9
 41.750        5
 41.800        7
 41.850        7
 41.900        3
 41.950        8
 42.000        5
 42.050        6
 42.100        6
 42.150        4
 42.200        4
 42.250        4
 42.300        8
 42.350        8
 42.400        7
 42.450        5
 42.500        5
 42.550        7
 42.600        8
 42.650        6
 42.700        6
 42.750        6
 42.800        1
 42.850        9
 42.900        6
 42.950        6
 43.000        7
 43.050        3
 43.100        8
 43.150        4
 43.200        6
 43.250        8
 43.300        8
 43.350        6
 43.400        6
 43.450        8
 43.500       11
 43.550        6
 43.600        8
 43.650        8
 43.700        4
 43.750        5
 43.800        7
 43.850        6
 43.900        4
 43.950        7
 44.000        9
 44.050        6
 44.100       10
 44.150        5
 44.200        3
 44.250        7
 44.300        8
 44.350        7
 44.400        5
 44.450        5
 44.500        2
 44.550        4
 44.600        4
 44.650        5
 44.700        8
 44.750        9
 44.800       10
 44.850       13
 44.900       12
 44.950       51
 45.000      140
 45.050      150
 45.100       85
 45.150       55
 45.200       47
 45.250       56
 45.300       82
 45.350       58
 45.400       39
 45.450       22
 45.500       22
 45.550       14
 45.600       14
 45.650        9
 45.700        6
 45.750        2
 45.800        8
 45.850        3
 45.900        5
 45.950        5
 46.000        4
 46.050        4
 46.100       13
 46.150        7
 46.200       10
 46.250        6
 46.300        4
 46.350        7
 46.400        4
 46.450        6
 46.500        5
 46.550        7
 46.600        6
 46.650        9
 46.700        3
 46.750        9
 46.800        9
 46.850        9
 46.900        8
 46.950        6
 47.000        6
 47.050        8
 47.100        5
 47.150        3
 47.200        5
 47.250        6
 47.300        4
 47.350        4
 47.400        8
 47.450        9
 47.500        3
 47.550       11
 47.600        3
 47.650        2
 47.700        3
 47.750        6
 47.800        9
 47.850        5
 47.900        6
 47.950        7
 48.000        8
 48.050        4
 48.100        7
 48.150        9
 48.200        6
 48.250        7
 48.300        2
 48.350        7
 48.400        6
 48.450        9
 48.500        6
 48.550        8
 48.600        6
 48.650        7
 48.700        8
 48.750        3
 48.800        6
 48.850        9
 48.900        6
 48.950       12
 49.000        4
 49.050        5
 49.100        5
 49.150        2
 49.200        1
 49.250        8
 49.300        8
 49.350        9
 49.400        9
 49.450        7
 49.500        6
 49.550       10
 49.600        7
 49.650        7
 49.700        3
 49.750       10
 49.800       10
 49.850        8
 49.900        6
 49.950        4
 50.000        3
 50.050        1
 50.100        5
 50.150        1
 50.200        7
 50.250        7
 50.300        8
 50.350        1
 50.400        6
 50.450        5
 50.500       10
 50.550        7
 50.600        5
 50.650        7
 50.700        8
 50.750        6
 50.800        5
 50.850        6
 50.900        5
 50.950       10
 51.000        7
 51.050        9
 51.100        5
 51.150        7
 51.200        4
 51.250        8
 51.300        7
 51.350        3
 51.400        3
 51.450        6
 51.500        9
 51.550        4
 51.600        5
 51.650        8
 51.700        0
 51.750       10
 51.800       10
 51.850        7
 51.900        5
 51.950        7
 52.000        3
 52.050        8
 52.100        5
 52.150        6
 52.200        2
 52.250        8
 52.300        4
 52.350        6
 52.400        4
 52.450        6
 52.500        9
 52.550        3
 52.600        3
 52.650       10
 52.700       10
 52.750        6
 52.800        5
 52.850        2
 52.900        4
 52.950        6
 53.000        4
 53.050        5
 53.100        6
 53.150        3
 53.200        6
 53.250        8
 53.300        9
 53.350       14
 53.400        6
 53.450       13
 53.500       10
 53.550       13
 53.600        7
 53.650        5
 53.700        8
 53.750        8
 53.800        8
 53.850        3
 53.900        9
 53.950        6
 54.000        5
 54.050       13
 54.100        9
 54.150        9
 54.200        5
 54.250        9
 54.300        4
 54.350        4
 54.400        3
 54.450        5
 54.500        8
 54.550        3
 54.600        6
 54.650        3
 54.700        5
 54.750        4
 54.800        5
 54.850        8
 54.900        2
 54.950        4
 55.000        4
 55.050        5
 55.100        7
 55.150        8
 55.200        8
 55.250        8
 55.300        7
 55.350       11
 55.400        7
 55.450        7
 55.500       11
 55.550       10
 55.600       10
 55.650        5
 55.700        5
 55.750       10
 55.800       10
 55.850       14
 55.900       25
 55.950       22
 56.000       42
 56.050       31
 56.100       21
 56.150       15
 56.200       11
 56.250       19
 56.300       27
 56.350       34
 56.400       10
 56.450       10
 56.500       13
 56.550        8
 56.600        9
 56.650       13
 56.700        6
 56.750       10
 56.800        4
 56.850        5
 56.900        3
 56.950        4
 57.000        5
 57.050        9
 57.100        5
 57.150       10
 57.200        6
 57.250        8
 57.300        2
 57.350        5
 57.400        5
 57.450        6
 57.500        5
 57.550        7
 57.600       10
 57.650        9
 57.700        3
 57.750        7
 57.800        2
 57.850        5
 57.900        4
 57.950        7
 58.000        7
 58.050        7
 58.100        4
 58.150        7
 58.200        5
 58.250        7
 58.300        7
 58.350        7
 58.400        8
 58.450        4
 58.500        5
 58.550        1
 58.600        6
 58.650        5
 58.700       12
 58.750        3
 58.800        8
 58.850        9
 58.900        8
 58.950        5
 59.000        6
 59.050        8
 59.100        2
 59.150        6
 59.200       11
 59.250        6
 59.300        5
 59.350        5
 59.400        3
 59.450        6
 59.500        5
 59.550        4
 59.600        7
 59.650        1
 59.700        7
 59.750        5
 59.800        3
 59.850        4
 59.900        7
 59.950        6
 60.000        7
 60.050        8
 60.100        6
 60.150        5
 60.200       12
 60.250        6
 60.300        8
 60.350        7
 60.400        8
 60.450        8
 60.500        5
 60.550        6
 60.600        8
 60.650        7
 60.700        0
 60.750        3
 60.800        5
 60.850        6
 60.900        5
 60.950        5
 61.000        4
 61.050        4
 61.100       10
 61.150        6
 61.200        6
 61.250        7
 61.300        2
 61.350        6
 61.400        7
 61.450        3
 61.500        7
 61.550        2
 61.600        3
 61.650        3
 61.700        9
 61.750        7
 61.800        6
 61.850        4
 61.900        5
 61.950        5
 62.000       10
 62.050        5
 62.100        4
 62.150        7
 62.200        3
 62.250        2
 62.300        7
 62.350        9
 62.400        8
 62.450        9
 62.500        7
 62.550       10
 62.600        5
 62.650        5
 62.700        5
 62.750        7
 62.800        3
 62.850        1
 62.900        5
 62.950        1
 63.000        7
 63.050        6
 63.100        4
 63.150        2
 63.200        5
 63.250        6
 63.300        5
 63.350       10
 63.400        6
 63.450        2
 63.500       10
 63.550        7
 63.600        8
 63.650        5
 63.700        5
 63.750        6
 63.800        3
 63.850        8
 63.900        4
 63.950        8
 64.000        6
 64.050        5
 64.100        9
 64.150        4
 64.200        5
 64.250        5
 64.300        6
 64.350        7
 64.400        7
 64.450        8
 64.500        2
 64.550        5
 64.600       12
 64.650        1
 64.700        5
 64.750        6
 64.800        7
 64.850       10
 64.900        2
 64.950        4
 65.000        6
 65.050        6
 65.100        8
 65.150        5
 65.200        7
 65.250        6
 65.300        9
 65.350       10
 65.400        7
 65.450       10
 65.500        6
 65.550        7
 65.600       17
 65.650       18
 65.700       24
 65.750       14
 65.800       20
 65.850       13
 65.900        4
 65.950        9
 66.000        6
 66.050       22
 66.100       17
 66.150        6
 66.200        7
 66.250        8
 66.300        6
 66.350        4
 66.400        6
 66.450        5
 66.500        2
 66.550       12
 66.600        4
 66.650        4
 66.700        5
 66.750        7
 66.800        4
 66.850        7
 66.900        4
 66.950        3
 67.000        3
 67.050        5
 67.100        4
 67.150        7
 67.200        4
 67.250        3
 67.300        6
 67.350        3
 67.400        6
 67.450        5
 67.500        6
 67.550        5
 67.600        2
 67.650        4
 67.700        6
 67.750        9
 67.800        4
 67.850        5
 67.900        3
 67.950       11
 68.000        7
 68.050        5
 68.100        6
 68.150        6
 68.200        9
 68.250        9
 68.300       12
 68.350        9
 68.400        5
 68.450        8
 68.500        5
 68.550       10
 68.600        7
 68.650        4
 68.700       10
 68.750        4
 68.800        9
 68.850        3
 68.900        2
 68.950        5
 69.000        5
 69.050        2
 69.100        6
 69.150        7
 69.200        7
 69.250       10
 69.300       10
 69.350        9
 69.400        4
 69.450        8
 69.500        7
 69.550        4
 69.600        5
 69.650        8
 69.700        7
 69.750        8
 69.800        3
 69.850        3
 69.900        6
 69.950        6
 70.000        4
 70.050        8
 70.100        5
 70.150        8
 70.200       10
 70.250        6
 70.300       10
 70.350       12
 70.400        6
 70.450        6
 70.500        5
 70.550        9
 70.600        7
 70.650        5
 70.700        4
 70.750        5
 70.800        8
 70.850        6
 70.900        3
 70.950        5
 71.000       10
 71.050        2
 71.100        5
 71.150        8
 71.200        7
 71.250        8
 71.300        4
 71.350        6
 71.400        4
 71.450        6
 71.500        7
 71.550        2
 71.600        3
 71.650        9
 71.700        4
 71.750        7
 71.800        5
 71.850        7
 71.900        2
 71.950        4
 72.000        8
 72.050        6
 72.100       11
 72.150        4
 72.200        5
 72.250        1
 72.300        2
 72.350       10
 72.400       10
 72.450        5
 72.500        6
 72.550        1
 72.600        5
 72.650        1
 72.700        8
 72.750        9
 72.800        6
 72.850       10
 72.900        4
 72.950        6
 73.000        5
 73.050        9
 73.100        9
 73.150        4
 73.200        6
 73.250        4
 73.300       10
 73.350        7
 73.400        2
 73.450        6
 73.500        6
 73.550        2
 73.600        2
 73.650       10
 73.700        8
 73.750        9
 73.800        5
 73.850        8
 73.900        8
 73.950        8
 74.000        4
 74.050        7
 74.100        6
 74.150        9
 74.200        9
 74.250        3
 74.300        3
 74.350        6
 74.400        5
 74.450       10
 74.500       12
 74.550       20
 74.600       15
 74.650       33
 74.700       34
 74.750       35
 74.800       23
 74.850       19
 74.900       13
 74.950       16
 75.000       17
 75.050       11
 75.100       24
 75.150       28
 75.200       21
 75.250       18
 75.300       14
 75.350       10
 75.400       11
 75.450       15
 75.500        5
 75.550        6
 75.600       10
 75.650        6
 75.700        6
 75.750        8
 75.800        3
 75.850        4
 75.900        7
 75.950        8
 76.000       10
 76.050        1
 76.100        7
 76.150        9
 76.200        6
 76.250        9
 76.300        6
 76.350        6
 76.400        8
 76.450       10
 76.500        8
 76.550        9
 76.600       10
 76.650        2
 76.700        7
 76.750       13
 76.800        4
 76.850        7
 76.900        3
 76.950        5
 77.000        8
 77.050        5
 77.100        3
 77.150        1
 77.200        6
 77.250        2
 77.300        4
 77.350        4
 77.400        6
 77.450        5
 77.500        8
 77.550        9
 77.600        7
 77.650        8
 77.700        5
 77.750        9
 77.800        7
 77.850        7
 77.900        5
 77.950        8
 78.000        7
 78.050        5
 78.100        5
 78.150        5
 78.200        8
 78.250        9
 78.300        4
 78.350        8
 78.400        7
 78.450        6
 78.500        3
 78.550        9
 78.600        7
 78.650        7
 78.700        3
 78.750        6
 78.800        7
 78.850        6
 78.900        3
 78.950        3
 79.000        5
 79.050        9
 79.100        7
 79.150        6
 79.200        6
 79.250       12
 79.300        6
 79.350       10
 79.400        8
 79.450        7
 79.500        6
 79.550        9
 79.600        6
 79.650        7
 79.700       10
 79.750        4
 79.800        9
 79.850       10
 79.900        9
 79.950        7
 80.000       12