File: Experment_RB/Data/XRD/HG1_NaCl_01_55s_4523.dat
10	7
10.05	12
10.1	8
10.15	6
10.2	10
10.25	7
10.3	8
10.35	6
10.4	7
10.45	4
10.5	5
10.55	4
10.6	10
10.65	7
10.7	5
10.75	12
10.8	8
10.85	6
10.9	11
10.95	9
11	7
11.05	7
11.1	14
11.15	7
11.2	0
11.25	8
11.3	6
11.35	6
11.4	10
11.45	13
11.5	9
11.55	8
11.6	7
11.65	5
11.7	4
11.75	7
11.8	7
11.85	3
11.9	11
11.95	5
12	6
12.05	11
12.1	9
12.15	9
12.2	5
12.25	7
12.3	6
12.35	8
12.4	6
12.45	6
12.5	9
12.55	11
12.6	3
12.65	8
12.7	13
12.75	9
12.8	5
12.85	5
12.9	6
12.95	8
13	9
13.05	9
13.1	8
13.15	6
13.2	7
13.25	10
13.3	7
13.35	8
13.4	5
13.45	10
13.5	8
13.55	3
13.6	13
13.65	15
13.7	3
13.75	6
13.8	10
13.85	3
13.9	5
13.95	7
14	3
14.05	4
14.1	10
14.15	6
14.2	13
14.25	3
14.3	6
14.35	4
14.4	9
14.45	6
14.5	9
14.55	3
14.6	7
14.65	4
14.7	8
14.75	8
14.8	8
14.85	6
14.9	3
14.95	9
15	7
15.05	8
15.1	3
15.15	9
15.2	5
15.25	9
15.3	6
15.35	4
15.4	7
15.45	3
15.5	5
15.55	10
15.6	8
15.65	5
15.7	7
15.75	1
15.8	6
15.85	6
15.9	1
15.95	5
16	5
16.05	8
16.1	6
16.15	4
16.2	7
16.25	7
16.3	8
16.35	7
16.4	6
16.45	10
16.5	4
16.55	8
16.6	3
16.65	5
16.7	9
16.75	6
16.8	15
16.85	6
16.9	6
16.95	9
17	9
17.05	10
17.1	4
17.15	10
17.2	2
17.25	3
17.3	9
17.35	4
17.4	9
17.45	8
17.5	5
17.55	5
17.6	4
17.65	7
17.7	4
17.75	6
17.8	6
17.85	6
17.9	4
17.95	0
18	6
18.05	2
18.1	7
18.15	9
18.2	8
18.25	5
18.3	9
18.35	6
18.4	7
18.45	4
18.5	9
18.55	4
18.6	10
18.65	5
18.7	9
18.75	6
18.8	11
18.85	6
18.9	4
18.95	8
19	9
19.05	5
19.1	6
19.15	11
19.2	3
19.25	10
19.3	3
19.35	6
19.4	6
19.45	3
19.5	5
19.55	11
19.6	5
19.65	6
19.7	6
19.75	11
19.8	11
19.85	10
19.9	6
19.95	7
20	4
20.05	8
20.1	5
20.15	13
20.2	8
20.25	3
20.3	7
20.35	9
20.4	7
20.45	7
20.5	8
20.55	5
20.6	6
20.65	8
20.7	5
20.75	9
20.8	2
20.85	7
20.9	7
20.95	5
21	8
21.05	5
21.1	5
21.15	7
21.2	5
21.25	4
21.3	8
21.35	1
21.4	7
21.45	5
21.5	7
21.55	4
21.6	9
21.65	8
21.7	6
21.75	4
21.8	7
21.85	6
21.9	6
21.95	3
22	8
22.05	6
22.1	3
22.15	7
22.2	4
22.25	8
22.3	10
22.35	9
22.4	8
22.45	7
22.5	8
22.55	5
22.6	7
22.65	8
22.7	9
22.75	6
22.8	5
22.85	7
22.9	9
22.95	4
23	9
23.05	3
23.1	4
23.15	5
23.2	3
23.25	5
23.3	6
23.35	5
23.4	9
23.45	2
23.5	1
23.55	5
23.6	7
23.65	4
23.7	2
23.75	9
23.8	4
23.85	4
23.9	5
23.95	5
24	5
24.05	5
24.1	8
24.15	6
24.2	5
24.25	6
24.3	8
24.35	4
24.4	8
24.45	8
24.5	10
24.55	10
24.6	5
24.65	6
24.7	6
24.75	7
24.8	7
24.85	6
24.9	1
24.95	5
25	5
25.05	9
25.1	6
25.15	3
25.2	5
25.25	4
25.3	8
25.35	4
25.4	8
25.45	6
25.5	4
25.55	13
25.6	8
25.65	7
25.7	4
25.75	10
25.8	12
25.85	5
25.9	5
25.95	10
26	2
26.05	7
26.1	7
26.15	4
26.2	5
26.25	8
26.3	5
26.35	8
26.4	6
26.45	4
26.5	9
26.55	4
26.6	8
26.65	6
26.7	6
26.75	4
26.8	7
26.85	9
26.9	5
26.95	14
27	27
27.05	25
27.1	16
27.15	26
27.2	13
27.25	11
27.3	13
27.35	11
27.4	7
27.45	8
27.5	6
27.55	2
27.6	5
27.65	6
27.7	7
27.75	4
27.8	4
27.85	7
27.9	3
27.95	13
28	8
28.05	5
28.1	5
28.15	6
28.2	7
28.25	5
28.3	8
28.35	7
28.4	9
28.45	11
28.5	7
28.55	8
28.6	8
28.65	2
28.7	7
28.75	5
28.8	4
28.85	9
28.9	9
28.95	8
29	5
29.05	6
29.1	10
29.15	7
29.2	7
29.25	3
29.3	5
29.35	9
29.4	7
29.45	6
29.5	9
29.55	9
29.6	6
29.65	4
29.7	3
29.75	4
29.8	2
29.85	9
29.9	6
29.95	7
30	9
30.05	4
30.1	6
30.15	6
30.2	7
30.25	7
30.3	5
30.35	8
30.4	10
30.45	4
30.5	10
30.55	7
30.6	5
30.65	4
30.7	6
30.75	2
30.8	5
30.85	7
30.9	7
30.95	3
31	8
31.05	6
31.1	5
31.15	14
31.2	25
31.25	62
31.3	195
31.35	399
31.4	258
31.45	151
31.5	123
31.55	169
31.6	117
31.65	59
31.7	47
31.75	16
31.8	13
31.85	13
31.9	12
31.95	8
32	6
32.05	8
32.1	5
32.15	6
32.2	9
32.25	8
32.3	5
32.35	7
32.4	2
32.45	7
32.5	8
32.55	4
32.6	9
32.65	9
32.7	5
32.75	9
32.8	7
32.85	10
32.9	3
32.95	5
33	7
33.05	10
33.1	9
33.15	12
33.2	6
33.25	9
33.3	4
33.35	11
33.4	11
33.45	8
33.5	6
33.55	7
33.6	5
33.65	7
33.7	7
33.75	5
33.8	5
33.85	10
33.9	9
33.95	6
34	8
34.05	2
34.1	6
34.15	4
34.2	5
34.25	4
34.3	7
34.35	5
34.4	7
34.45	8
34.5	7
34.55	7
34.6	11
34.65	2
34.7	6
34.75	5
34.8	6
34.85	8
34.9	4
34.95	9
35	3
35.05	10
35.1	5
35.15	4
35.2	7
35.25	1
35.3	7
35.35	5
35.4	6
35.45	10
35.5	8
35.55	4
35.6	6
35.65	9
35.7	8
35.75	11
35.8	7
35.85	6
35.9	6
35.95	8
36	6
36.05	11
36.1	9
36.15	7
36.2	6
36.25	3
36.3	5
36.35	9
36.4	6
36.45	3
36.5	4
36.55	11
36.6	9
36.65	11
36.7	7
36.75	9
36.8	7
36.85	6
36.9	7
36.95	6
37	9
37.05	6
37.1	10
37.15	6
37.2	6
37.25	7
37.3	8
37.35	7
37.4	1
37.45	7
37.5	10
37.55	9
37.6	2
37.65	4
37.7	6
37.75	8
37.8	4
37.85	7
37.9	6
37.95	9
38	4
38.05	7
38.1	6
38.15	5
38.2	7
38.25	5
38.3	7
38.35	10
38.4	6
38.45	6
38.5	4
38.55	11
38.6	8
38.65	7
38.7	2
38.75	7
38.8	9
38.85	2
38.9	7
38.95	6
39	7
39.05	5
39.1	4
39.15	2
39.2	4
39.25	2
39.3	11
39.35	6
39.4	8
39.45	3
39.5	10
39.55	6
39.6	10
39.65	4
39.7	6
39.75	9
39.8	6
39.85	5
39.9	8
39.95	8
40	2
40.05	5
40.1	7
40.15	6
40.2	3
40.25	7
40.3	7
40.35	2
40.4	5
40.45	6
40.5	4
40.55	11
40.6	4
40.65	2
40.7	4
40.75	2
40.8	10
40.85	7
40.9	4
40.95	3
41	5
41.05	8
41.1	6
41.15	6
41.2	7
41.25	4
41.3	3
41.35	5
41.4	7
41.45	4
41.5	5
41.55	6
41.6	3
41.65	9
41.7	9
41.75	5
41.8	7
41.85	7
41.9	3
41.95	8
42	5
42.05	6
42.1	6
42.15	4
42.2	4
42.25	4
42.3	8
42.35	8
42.4	7
42.45	5
42.5	5
42.55	7
42.6	8
42.65	6
42.7	6
42.75	6
42.8	1
42.85	9
42.9	6
42.95	6
43	7
43.05	3
43.1	8
43.15	4
43.2	6
43.25	8
43.3	8
43.35	6
43.4	6
43.45	8
43.5	11
43.55	6
43.6	8
43.65	8
43.7	4
43.75	5
43.8	7
43.85	6
43.9	4
43.95	7
44	9
44.05	6
44.1	10
44.15	5
44.2	3
44.25	7
44.3	8
44.35	7
44.4	5
44.45	5
44.5	2
44.55	4
44.6	4
44.65	5
44.7	8
44.75	9
44.8	10
44.85	13
44.9	12
44.95	51
45	140
45.05	150
45.1	85
45.15	55
45.2	47
45.25	56
45.3	82
45.35	58
45.4	39
45.45	22
45.5	22
45.55	14
45.6	14
45.65	9
45.7	6
45.75	2
45.8	8
45.85	3
45.9	5
45.95	5
46	4
46.05	4
46.1	13
46.15	7
46.2	10
46.25	6
46.3	4
46.35	7
46.4	4
46.45	6
46.5	5
46.55	7
46.6	6
46.65	9
46.7	3
46.75	9
46.8	9
46.85	9
46.9	8
46.95	6
47	6
47.05	8
47.1	5
47.15	3
47.2	5
47.25	6
47.3	4
47.35	4
47.4	8
47.45	9
47.5	3
47.55	11
47.6	3
47.65	2
47.7	3
47.75	6
47.8	9
47.85	5
47.9	6
47.95	7
48	8
48.05	4
48.1	7
48.15	9
48.2	6
48.25	7
48.3	2
48.35	7
48.4	6
48.45	9
48.5	6
48.55	8
48.6	6
48.65	7
48.7	8
48.75	3
48.8	6
48.85	9
48.9	6
48.95	12
49	4
49.05	5
49.1	5
49.15	2
49.2	1
49.25	8
49.3	8
49.35	9
49.4	9
49.45	7
49.5	6
49.55	10
49.6	7
49.65	7
49.7	3
49.75	10
49.8	10
49.85	8
49.9	6
49.95	4
50	3
50.05	1
50.1	5
50.15	1
50.2	7
50.25	7
50.3	8
50.35	1
50.4	6
50.45	5
50.5	10
50.55	7
50.6	5
50.65	7
50.7	8
50.75	6
50.8	5
50.85	6
50.9	5
50.95	10
51	7
51.05	9
51.1	5
51.15	7
51.2	4
51.25	8
51.3	7
51.35	3
51.4	3
51.45	6
51.5	9
51.55	4
51.6	5
51.65	8
51.7	0
51.75	10
51.8	10
51.85	7
51.9	5
51.95	7
52	3
52.05	8
52.1	5
52.15	6
52.2	2
52.25	8
52.3	4
52.35	6
52.4	4
52.45	6
52.5	9
52.55	3
52.6	3
52.65	10
52.7	10
52.75	6
52.8	5
52.85	2
52.9	4
52.95	6
53	4
53.05	5
53.1	6
53.15	3
53.2	6
53.25	8
53.3	9
53.35	14
53.4	6
53.45	13
53.5	10
53.55	13
53.6	7
53.65	5
53.7	8
53.75	8
53.8	8
53.85	3
53.9	9
53.95	6
54	5
54.05	13
54.1	9
54.15	9
54.2	5
54.25	9
54.3	4
54.35	4
54.4	3
54.45	5
54.5	8
54.55	3
54.6	6
54.65	3
54.7	5
54.75	4
54.8	5
54.85	8
54.9	2
54.95	4
55	4
55.05	5
55.1	7
55.15	8
55.2	8
55.25	8
55.3	7
55.35	11
55.4	7
55.45	7
55.5	11
55.55	10
55.6	10
55.65	5
55.7	5
55.75	10
55.8	10
55.85	14
55.9	25
55.95	22
56	42
56.05	31
56.1	21
56.15	15
56.2	11
56.25	19
56.3	27
56.35	34
56.4	10
56.45	10
56.5	13
56.55	8
56.6	9
56.65	13
56.7	6
56.75	10
56.8	4
56.85	5
56.9	3
56.95	4
57	5
57.05	9
57.1	5
57.15	10
57.2	6
57.25	8
57.3	2
57.35	5
57.4	5
57.45	6
57.5	5
57.55	7
57.6	10
57.65	9
57.7	3
57.75	7
57.8	2
57.85	5
57.9	4
57.95	7
58	7
58.05	7
58.1	4
58.15	7
58.2	5
58.25	7
58.3	7
58.35	7
58.4	8
58.45	4
58.5	5
58.55	1
58.6	6
58.65	5
58.7	12
58.75	3
58.8	8
58.85	9
58.9	8
58.95	5
59	6
59.05	8
59.1	2
59.15	6
59.2	11
59.25	6
59.3	5
59.35	5
59.4	3
59.45	6
59.5	5
59.55	4
59.6	7
59.65	1
59.7	7
59.75	5
59.8	3
59.85	4
59.9	7
59.95	6
60	7
60.05	8
60.1	6
60.15	5
60.2	12
60.25	6
60.3	8
60.35	7
60.4	8
60.45	8
60.5	5
60.55	6
60.6	8
60.65	7
60.7	0
60.75	3
60.8	5
60.85	6
60.9	5
60.95	5
61	4
61.05	4
61.1	10
61.15	6
61.2	6
61.25	7
61.3	2
61.35	6
61.4	7
61.45	3
61.5	7
61.55	2
61.6	3
61.65	3
61.7	9
61.75	7
61.8	6
61.85	4
61.9	5
61.95	5
62	10
62.05	5
62.1	4
62.15	7
62.2	3
62.25	2
62.3	7
62.35	9
62.4	8
62.45	9
62.5	7
62.55	10
62.6	5
62.65	5
62.7	5
62.75	7
62.8	3
62.85	1
62.9	5
62.95	1
63	7
63.05	6
63.1	4
63.15	2
63.2	5
63.25	6
63.3	5
63.35	10
63.4	6
63.45	2
63.5	10
63.55	7
63.6	8
63.65	5
63.7	5
63.75	6
63.8	3
63.85	8
63.9	4
63.95	8
64	6
64.05	5
64.1	9
64.15	4
64.2	5
64.25	5
64.3	6
64.35	7
64.4	7
64.45	8
64.5	2
64.55	5
64.6	12
64.65	1
64.7	5
64.75	6
64.8	7
64.85	10
64.9	2
64.95	4
65	6
65.05	6
65.1	8
65.15	5
65.2	7
65.25	6
65.3	9
65.35	10
65.4	7
65.45	10
65.5	6
65.55	7
65.6	17
65.65	18
65.7	24
65.75	14
65.8	20
65.85	13
65.9	4
65.95	9
66	6
66.05	22
66.1	17
66.15	6
66.2	7
66.25	8
66.3	6
66.35	4
66.4	6
66.45	5
66.5	2
66.55	12
66.6	4
66.65	4
66.7	5
66.75	7
66.8	4
66.85	7
66.9	4
66.95	3
67	3
67.05	5
67.1	4
67.15	7
67.2	4
67.25	3
67.3	6
67.35	3
67.4	6
67.45	5
67.5	6
67.55	5
67.6	2
67.65	4
67.7	6
67.75	9
67.8	4
67.85	5
67.9	3
67.95	11
68	7
68.05	5
68.1	6
68.15	6
68.2	9
68.25	9
68.3	12
68.35	9
68.4	5
68.45	8
68.5	5
68.55	10
68.6	7
68.65	4
68.7	10
68.75	4
68.8	9
68.85	3
68.9	2
68.95	5
69	5
69.05	2
69.1	6
69.15	7
69.2	7
69.25	10
69.3	10
69.35	9
69.4	4
69.45	8
69.5	7
69.55	4
69.6	5
69.65	8
69.7	7
69.75	8
69.8	3
69.85	3
69.9	6
69.95	6
70	4
70.05	8
70.1	5
70.15	8
70.2	10
70.25	6
70.3	10
70.35	12
70.4	6
70.45	6
70.5	5
70.55	9
70.6	7
70.65	5
70.7	4
70.75	5
70.8	8
70.85	6
70.9	3
70.95	5
71	10
71.05	2
71.1	5
71.15	8
71.2	7
71.25	8
71.3	4
71.35	6
71.4	4
71.45	6
71.5	7
71.55	2
71.6	3
71.65	9
71.7	4
71.75	7
71.8	5
71.85	7
71.9	2
71.95	4
72	8
72.05	6
72.1	11
72.15	4
72.2	5
72.25	1
72.3	2
72.35	10
72.4	10
72.45	5
72.5	6
72.55	1
72.6	5
72.65	1
72.7	8
72.75	9
72.8	6
72.85	10
72.9	4
72.95	6
73	5
73.05	9
73.1	9
73.15	4
73.2	6
73.25	4
73.3	10
73.35	7
73.4	2
73.45	6
73.5	6
73.55	2
73.6	2
73.65	10
73.7	8
73.75	9
73.8	5
73.85	8
73.9	8
73.95	8
74	4
74.05	7
74.1	6
74.15	9
74.2	9
74.25	3
74.3	3
74.35	6
74.4	5
74.45	10
74.5	12
74.55	20
74.6	15
74.65	33
74.7	34
74.75	35
74.8	23
74.85	19
74.9	13
74.95	16
75	17
75.05	11
75.1	24
75.15	28
75.2	21
75.25	18
75.3	14
75.35	10
75.4	11
75.45	15
75.5	5
75.55	6
75.6	10
75.65	6
75.7	6
75.75	8
75.8	3
75.85	4
75.9	7
75.95	8
76	10
76.05	1
76.1	7
76.15	9
76.2	6
76.25	9
76.3	6
76.35	6
76.4	8
76.45	10
76.5	8
76.55	9
76.6	10
76.65	2
76.7	7
76.75	13
76.8	4
76.85	7
76.9	3
76.95	5
77	8
77.05	5
77.1	3
77.15	1
77.2	6
77.25	2
77.3	4
77.35	4
77.4	6
77.45	5
77.5	8
77.55	9
77.6	7
77.65	8
77.7	5
77.75	9
77.8	7
77.85	7
77.9	5
77.95	8
78	7
78.05	5
78.1	5
78.15	5
78.2	8
78.25	9
78.3	4
78.35	8
78.4	7
78.45	6
78.5	3
78.55	9
78.6	7
78.65	7
78.7	3
78.75	6
78.8	7
78.85	6
78.9	3
78.95	3
79	5
79.05	9
79.1	7
79.15	6
79.2	6
79.25	12
79.3	6
79.35	10
79.4	8
79.45	7
79.5	6
79.55	9
79.6	6
79.65	7
79.7	10
79.75	4
79.8	9
79.85	10
79.9	9
79.95	7
80	12